{
    "resourceType": "Claim",
    "identifier": [
        {
            "type": {
                "coding": [
                    {
                        "system": "https://openimis.github.io/openimis_fhir_r4_ig/CodeSystem/openimis-identifiers",
                        "code": "Code"
                    }
                ]
            },
            "value": "T00002"
        }
    ],
    "status": "active",
    "type": {
        "coding": [
            {
                "system": "https://openimis.github.io/openimis_fhir_r4_ig/CodeSystem/claim-visit-type",
                "code": "O",
                "display": "Other"
            }
        ]
    },
    "use": "claim",
    "patient": {
        "reference": "#Patient/AAAA08B5-6E85-470C-83EC-0EE9370F0000",
        "type": "Patient",
        "identifier": {
            "type": {
                "coding": [
                    {
                        "system": "https://openimis.github.io/openimis_fhir_r4_ig/CodeSystem/openimis-identifiers",
                        "code": "UUID"
                    }
                ]
            },
            "value": "AAAA08B5-6E85-470C-83EC-0EE9370F0000"
        }
    },
    "billablePeriod": {
        "start": "2021-02-03",
        "end": "2021-02-03"
    },
    "created": "2021-02-03",
    "enterer": {
        "reference": "#Practitioner/AAAA5229-DD11-4383-863C-E2FAD1B20000",
        "type": "Practitioner",
        "identifier": {
            "type": {
                "coding": [
                    {
                        "system": "https://openimis.github.io/openimis_fhir_r4_ig/CodeSystem/openimis-identifiers",
                        "code": "UUID"
                    }
                ]
            },
            "value": "AAAA5229-DD11-4383-863C-E2FAD1B20000"
        }
    },
    "provider": {
        "reference": "Organization/AAAA5F9B-97C6-444B-AAD9-2FCCFD460000",
        "type": "Organization",
        "identifier": {
            "type": {
                "coding": [
                    {
                        "system": "https://openimis.github.io/openimis_fhir_r4_ig/CodeSystem/openimis-identifiers",
                        "code": "UUID"
                    }
                ]
            },
            "value": "AAAA5F9B-97C6-444B-AAD9-2FCCFD460000"
        }
    },
    "priority": {
        "coding": [
            {
                "system": "http://terminology.hl7.org/CodeSystem/processpriority",
                "code": "normal",
                "display": "Normal"
            }
        ]
    },
    "supportingInfo": [
        {
            "sequence": 1,
            "category": {
                "coding": [
                    {
                        "system": "https://openimis.github.io/openimis_fhir_r4_ig/CodeSystem/claim-supporting-info-category",
                        "code": "guarantee"
                    }
                ]
            },
            "valueString": "1234"
        },
        {
            "sequence": 2,
            "category": {
                "coding": [
                    {
                        "system": "https://openimis.github.io/openimis_fhir_r4_ig/CodeSystem/claim-supporting-info-category",
                        "code": "explanation"
                    }
                ]
            },
            "valueString": "example explanation"
        }
    ],
    "diagnosis": [
        {
            "sequence": 1,
            "diagnosisCodeableConcept": {
                "coding": [
                    {
                        "system": "https://openimis.github.io/openimis_fhir_r4_ig/CodeSystem/diagnosis-ICD10-level1",
                        "code": "T_CD",
                        "display": "Test diagnosis"
                    }
                ]
            }
        }
    ],
    "insurance": [
        {
            "sequence": 1,
            "focal": true,
            "coverage": {
                "reference": "Coverage/076199EA-5046-40D6-9836-5A0EFEC67C1B",
                "type": "Coverage",
                "identifier": {
                    "type": {
                        "coding": [
                            {
                                "system": "https://openimis.github.io/openimis_fhir_r4_ig/CodeSystem/openimis-identifiers",
                                "code": "UUID"
                            }
                        ]
                    },
                    "value": "076199EA-5046-40D6-9836-5A0EFEC67C1B"
                }
            }
        }
    ],
    "item": [
        {
            "extension": [
                {
                    "url": "https://openimis.github.io/openimis_fhir_r4_ig/StructureDefinition/claim-item-reference",
                    "valueReference": {
                        "reference": "#Medication/AAAA76E2-DC28-4B48-8E29-3AC4ABEC0000",
                        "type": "Medication",
                        "identifier": {
                            "type": {
                                "coding": [
                                    {
                                        "system": "https://openimis.github.io/openimis_fhir_r4_ig/CodeSystem/openimis-identifiers",
                                        "code": "UUID"
                                    }
                                ]
                            },
                            "value": "AAAA76E2-DC28-4B48-8E29-3AC4ABEC0000"
                        }
                    }
                }
            ],
            "sequence": 1,
            "category": {
                "text": "item"
            },
            "productOrService": {
                "text": "cItem"
            },
            "quantity": {
                "value": 10.0
            },
            "unitPrice": {
                "value": 10.0,
                "currency": "$"
            }
        },
        {
            "extension": [
                {
                    "url": "https://openimis.github.io/openimis_fhir_r4_ig/StructureDefinition/claim-item-reference",
                    "valueReference": {
                        "reference": "#ActivityDefinition/AAAA29BA-3F4E-4E6F-B55C-23A488A10000",
                        "type": "ActivityDefinition",
                        "identifier": {
                            "type": {
                                "coding": [
                                    {
                                        "system": "https://openimis.github.io/openimis_fhir_r4_ig/CodeSystem/openimis-identifiers",
                                        "code": "UUID"
                                    }
                                ]
                            },
                            "value": "AAAA29BA-3F4E-4E6F-B55C-23A488A10000"
                        }
                    }
                }
            ],
            "sequence": 2,
            "category": {
                "text": "service"
            },
            "productOrService": {
                "text": "cServ"
            },
            "quantity": {
                "value": 1.0
            },
            "unitPrice": {
                "value": 21000.0,
                "currency": "$"
            }
        }
    ],
    "total": {
        "value": 21100.0,
        "currency": "$"
    },
    "contained": [
        {
            "resourceType": "Patient",
            "id": "AAAA08B5-6E85-470C-83EC-0EE9370F0000",
            "extension": [
                {
                    "url": "https://openimis.github.io/openimis_fhir_r4_ig/StructureDefinition/patient-is-head",
                    "valueBoolean": false
                },
                {
                    "url": "https://openimis.github.io/openimis_fhir_r4_ig/StructureDefinition/patient-card-issued",
                    "valueBoolean": true
                }
            ],
            "identifier": [
                {
                    "type": {
                        "coding": [
                            {
                                "system": "https://openimis.github.io/openimis_fhir_r4_ig/CodeSystem/openimis-identifiers",
                                "code": "UUID"
                            }
                        ]
                    },
                    "value": "AAAA08B5-6E85-470C-83EC-0EE9370F0000"
                },
                {
                    "type": {
                        "coding": [
                            {
                                "system": "https://openimis.github.io/openimis_fhir_r4_ig/CodeSystem/openimis-identifiers",
                                "code": "Code"
                            }
                        ]
                    },
                    "value": "105000003"
                }
            ],
            "name": [
                {
                    "use": "usual",
                    "family": "TestFam",
                    "given": [
                        "TestGiv"
                    ]
                }
            ],
            "gender": "female",
            "birthDate": "1993-06-09",
            "address": [
                {
                    "extension": [
                        {
                            "url": "https://openimis.github.io/openimis_fhir_r4_ig/StructureDefinition/address-municipality",
                            "valueString": "Majhi"
                        },
                        {
                            "url": "https://openimis.github.io/openimis_fhir_r4_ig/StructureDefinition/address-location-reference",
                            "valueReference": {
                                "type": "Location",
                                "identifier": {
                                    "type": {
                                        "coding": [
                                            {
                                                "system": "https://openimis.github.io/openimis_fhir_r4_ig/CodeSystem/openimis-identifiers",
                                                "code": "Code"
                                            }
                                        ]
                                    },
                                    "value": "R2D2M1V1"
                                }
                            }
                        }
                    ],
                    "use": "home",
                    "type": "physical",
                    "city": "Radho",
                    "district": "Vida",
                    "state": "Tahida"
                }
            ],
            "photo": [
                {
                    "contentType": "jpg",
                    "url": "http://localhost/photo/Images/Updated//105000002_E00001_20180327_0.0_0.0.jpg",
                    "title": "105000002_E00001_20180327_0.0_0.0.jpg",
                    "creation": "2018-03-27"
                }
            ]
        },
        {
            "resourceType": "Group",
            "id": "AAAA5232-9054-4D86-B4F2-0E9C4ADF0000",
            "extension": [
                {
                    "url": "https://openimis.github.io/openimis_fhir_r4_ig/StructureDefinition/group-address",
                    "valueAddress": {
                        "extension": [
                            {
                                "url": "https://openimis.github.io/openimis_fhir_r4_ig/StructureDefinition/address-municipality",
                                "valueString": "Majhi"
                            },
                            {
                                "url": "https://openimis.github.io/openimis_fhir_r4_ig/StructureDefinition/address-location-reference",
                                "valueReference": {
                                    "type": "Location",
                                    "identifier": {
                                        "type": {
                                            "coding": [
                                                {
                                                    "system": "https://openimis.github.io/openimis_fhir_r4_ig/CodeSystem/openimis-identifiers",
                                                    "code": "Code"
                                                }
                                            ]
                                        },
                                        "value": "R2D2M1V1"
                                    }
                                }
                            }
                        ],
                        "use": "home",
                        "type": "physical",
                        "city": "Radho",
                        "district": "Vida",
                        "state": "Tahida"
                    }
                }
            ],
            "identifier": [
                {
                    "type": {
                        "coding": [
                            {
                                "system": "https://openimis.github.io/openimis_fhir_r4_ig/CodeSystem/openimis-identifiers",
                                "code": "UUID"
                            }
                        ]
                    },
                    "value": "AAAA5232-9054-4D86-B4F2-0E9C4ADF0000"
                },
                {
                    "type": {
                        "coding": [
                            {
                                "system": "https://openimis.github.io/openimis_fhir_r4_ig/CodeSystem/openimis-identifiers",
                                "code": "Code"
                            }
                        ]
                    },
                    "value": "105000003"
                }
            ],
            "active": true,
            "type": "Person",
            "actual": true,
            "name": "Ilina",
            "quantity": 2,
            "member": [
                {
                    "entity": {
                        "reference": "Patient/AAAA08B5-6E85-470C-83EC-0EE9370F0000",
                        "type": "Patient",
                        "identifier": {
                            "type": {
                                "coding": [
                                    {
                                        "system": "https://openimis.github.io/openimis_fhir_r4_ig/CodeSystem/openimis-identifiers",
                                        "code": "UUID"
                                    }
                                ]
                            },
                            "value": "AAAA08B5-6E85-470C-83EC-0EE9370F0000"
                        },
                        "display": "TestChfId1"
                    }
                }
            ]
        },
        {
            "resourceType": "Organization",
            "id": "AAAA5F9B-97C6-444B-AAD9-2FCCFD460000",
            "extension": [
                {
                    "url": "https://openimis.github.io/openimis_fhir_r4_ig/StructureDefinition/organization-legal-form",
                    "valueCodeableConcept": {
                        "coding": [
                            {
                                "system": "CodeSystem/organization-legal-form",
                                "code": "D",
                                "display": "District organization"
                            }
                        ]
                    }
                },
                {
                    "url": "https://openimis.github.io/openimis_fhir_r4_ig//StructureDefinition/organization-hf-level",
                    "valueCodeableConcept": {
                        "coding": [
                            {
                                "system": "https://openimis.github.io/openimis_fhir_r4_ig//CodeSystem/organization-hf-level",
                                "code": "D",
                                "display": "Dispensary"
                            }
                        ]
                    }
                },
                {
                    "url": "https://openimis.github.io/openimis_fhir_r4_ig/StructureDefinition/organization-hf-care-type",
                    "valueCodeableConcept": {
                        "coding": [
                            {
                                "system": "https://openimis.github.io/openimis_fhir_r4_ig//CodeSystem/organization-hf-care-type",
                                "code": "O",
                                "display": "Out-patient"
                            }
                        ]
                    }
                }
            ],
            "identifier": [
                {
                    "type": {
                        "coding": [
                            {
                                "system": "https://openimis.github.io/openimis_fhir_r4_ig/CodeSystem/openimis-identifiers",
                                "code": "UUID"
                            }
                        ]
                    },
                    "value": "AAAA5F9B-97C6-444B-AAD9-2FCCFD460000"
                },
                {
                    "type": {
                        "coding": [
                            {
                                "system": "https://openimis.github.io/openimis_fhir_r4_ig/CodeSystem/openimis-identifiers",
                                "code": "Code"
                            }
                        ]
                    },
                    "value": "RTDTMTVT"
                }
            ],
            "type": [
                {
                    "coding": [
                        {
                            "code": "prov"
                        }
                    ]
                }
            ],
            "name": "Viru Dispensary",
            "telecom": [
                {
                    "system": "email",
                    "value": "test_email"
                },
                {
                    "system": "phone",
                    "value": "test_phone"
                },
                {
                    "system": "fax",
                    "value": "test_fax"
                }
            ],
            "address": [
                {
                    "extension": [
                        {
                            "url": "https://openimis.github.io/openimis_fhir_r4_ig/StructureDefinition/address-location-reference",
                            "valueReference": {
                                "type": "Location",
                                "identifier": {
                                    "type": {
                                        "coding": [
                                            {
                                                "system": "https://openimis.github.io/openimis_fhir_r4_ig/CodeSystem/openimis-identifiers",
                                                "code": "Code"
                                            }
                                        ]
                                    },
                                    "value": "R2D2"
                                }
                            }
                        }
                    ],
                    "type": "physical",
                    "line": [
                        "Uitly road 1"
                    ],
                    "district": "TEST_NAME",
                    "state": "TEST_NAME"
                }
            ],
            "contact": [
                {
                    "purpose": {
                        "coding": [
                            {
                                "system": "http://terminology.hl7.org/CodeSystem/contactentity-type",
                                "code": "PAYOR"
                            }
                        ]
                    },
                    "name": {
                        "use": "usual",
                        "family": "Duikolau",
                        "given": [
                            "Juolpio"
                        ]
                    }
                },
                {
                    "purpose": {
                        "coding": [
                            {
                                "system": "http://terminology.hl7.org/CodeSystem/contactentity-type",
                                "code": "PAYOR"
                            }
                        ]
                    },
                    "name": {
                        "use": "usual",
                        "family": "Duikolau",
                        "given": [
                            "Juolpio"
                        ]
                    }
                }
            ]
        },
        {
            "resourceType": "Practitioner",
            "id": "AAAA5229-DD11-4383-863C-E2FAD1B20000",
            "identifier": [
                {
                    "type": {
                        "coding": [
                            {
                                "system": "https://openimis.github.io/openimis_fhir_r4_ig/CodeSystem/openimis-identifiers",
                                "code": "UUID"
                            }
                        ]
                    },
                    "value": "AAAA5229-DD11-4383-863C-E2FAD1B20000"
                },
                {
                    "type": {
                        "coding": [
                            {
                                "system": "https://openimis.github.io/openimis_fhir_r4_ig/CodeSystem/openimis-identifiers",
                                "code": "Code"
                            }
                        ]
                    },
                    "value": "VITEST11"
                }
            ],
            "name": [
                {
                    "use": "usual",
                    "family": "Duikolau",
                    "given": [
                        "Juolpio"
                    ]
                }
            ],
            "birthDate": "1977-11-13",
            "qualification": [
                {
                    "code": {
                        "coding": [
                            {
                                "system": "https://openimis.github.io/openimis_fhir_r4_ig/CodeSystem/practitioner-qualification-type",
                                "code": "CA",
                                "display": "Claim Administrator"
                            }
                        ]
                    }
                }
            ]
        },
        {
           "resourceType":"PractitionerRole",
            "id": "AAAA5229-DD11-4383-863C-E2FAD1B20000",
           "identifier":[
              {
                 "type":{
                    "coding":[
                       {
                          "system":"https://openimis.github.io/openimis_fhir_r4_ig/CodeSystem/openimis-identifiers",
                          "code":"Code"
                       }
                    ]
                 },
                 "value":"VITEST11"
              }
           ],
           "practitioner":{
              "reference":"Practitioner/AAAA5229-DD11-4383-863C-E2FAD1B20000",
              "type":"Practitioner",
              "identifier":{
                 "type":{
                    "coding":[
                       {
                          "system":"https://openimis.github.io/openimis_fhir_r4_ig/CodeSystem/openimis-identifiers",
                          "code":"UUID"
                       }
                    ]
                 },
                 "value":"AAAA5229-DD11-4383-863C-E2FAD1B20000"
              }
           },
           "organization":{
              "reference":"Organization/AAAA5F9B-97C6-444B-AAD9-2FCCFD460000",
              "type":"Organization",
              "identifier":{
                 "type":{
                    "coding":[
                       {
                          "system":"https://openimis.github.io/openimis_fhir_r4_ig/CodeSystem/openimis-identifiers",
                          "code":"UUID"
                       }
                    ]
                 },
                 "value":"AAAA5F9B-97C6-444B-AAD9-2FCCFD460000"
              }
           },
           "code":[
              {
                 "coding":[
                    {
                       "system":"https://openimis.github.io/openimis_fhir_r4_ig/CodeSystem/practitioner-qualification-type",
                       "code":"CA",
                       "display":"Claim Administrator"
                    }
                 ]
              }
           ]
        },
        {
            "resourceType": "Medication",
            "id": "AAAA76E2-DC28-4B48-8E29-3AC4ABEC0000",
            "extension": [
                {
                    "url": "https://openimis.github.io/openimis_fhir_r4_ig/CodeSystem/unit-price",
                    "valueMoney": {
                        "value": 10.0,
                        "currency": "$"
                    }
                },
                {
                    "url": "https://openimis.github.io/openimis_fhir_r4_ig/StructureDefinition/medication-type",
                    "valueCodeableConcept": {
                        "coding": [
                            {
                                "system": "https://openimis.github.io/openimis_fhir_r4_ig/CodeSystem/medication-item-type",
                                "code": "D",
                                "display": "Drug"
                            }
                        ]
                    }
                },
                {
                    "url": "https://openimis.github.io/openimis_fhir_r4_ig/StructureDefinition/medication-frequency",
                    "valueTiming": {
                        "repeat": {
                            "frequency": 1,
                            "period": 0.0,
                            "periodUnit": "d"
                        }
                    }
                },
                {
                    "extension": [
                        {
                            "url": "Gender",
                            "valueUsageContext": {
                                "code": {
                                    "system": "http://terminology.hl7.org/CodeSystem/usage-context-type",
                                    "code": "gender",
                                    "display": "Gender"
                                },
                                "valueCodeableConcept": {
                                    "coding": [
                                        {
                                            "system": "http://hl7.org/fhir/administrative-gender",
                                            "code": "male",
                                            "display": "Male"
                                        },
                                        {
                                            "system": "http://hl7.org/fhir/administrative-gender",
                                            "code": "female",
                                            "display": "Female"
                                        }
                                    ]
                                }
                            }
                        },
                        {
                            "url": "Age",
                            "valueUsageContext": {
                                "code": {
                                    "system": "http://terminology.hl7.org/CodeSystem/usage-context-type",
                                    "code": "age",
                                    "display": "Age"
                                },
                                "valueCodeableConcept": {
                                    "coding": [
                                        {
                                            "system": "https://openimis.github.io/openimis_fhir_r4_ig/CodeSystem/usage-context-age-type",
                                            "code": "adult",
                                            "display": "Adult"
                                        },
                                        {
                                            "system": "https://openimis.github.io/openimis_fhir_r4_ig/CodeSystem/usage-context-age-type",
                                            "code": "child",
                                            "display": "Child"
                                        }
                                    ]
                                }
                            }
                        },
                        {
                            "url": "CareType",
                            "valueUsageContext": {
                                "code": {
                                    "system": "http://terminology.hl7.org/CodeSystem/usage-context-type",
                                    "code": "venue",
                                    "display": "Clinical Venue"
                                },
                                "valueCodeableConcept": {
                                    "coding": [
                                        {
                                            "system": "http://terminology.hl7.org/CodeSystem/v3-ActCode",
                                            "code": "AMB",
                                            "display": "ambulatory"
                                        }
                                    ]
                                }
                            }
                        }
                    ],
                    "url": "https://openimis.github.io/openimis_fhir_r4_ig/StructureDefinition/medication-usage-context"
                },
                {
                    "url": "https://openimis.github.io/openimis_fhir_r4_ig/StructureDefinition/medication-level",
                    "valueCodeableConcept": {
                        "coding": [
                            {
                                "system": "https://openimis.github.io/openimis_fhir_r4_ig/CodeSystem/medication-level",
                                "code": "M",
                                "display": "Medication"
                            }
                        ],
                        "text": "Medication"
                    }
                }
            ],
            "identifier": [
                {
                    "type": {
                        "coding": [
                            {
                                "system": "https://openimis.github.io/openimis_fhir_r4_ig/CodeSystem/openimis-identifiers",
                                "code": "UUID"
                            }
                        ]
                    },
                    "value": "AAAA76E2-DC28-4B48-8E29-3AC4ABEC0000"
                },
                {
                    "type": {
                        "coding": [
                            {
                                "system": "https://openimis.github.io/openimis_fhir_r4_ig/CodeSystem/openimis-identifiers",
                                "code": "Code"
                            }
                        ]
                    },
                    "value": "cItem"
                }
            ],
            "code": {
                "text": "PARACETAMOL TABS 500 MG"
            },
            "status": "active",
            "form": {
                "text": "1000 TABLETS"
            },
            "amount": {
                "numerator": {
                    "value": 1000.0
                }
            }
        },
        {
            "resourceType": "ActivityDefinition",
            "id": "AAAA29BA-3F4E-4E6F-B55C-23A488A10000",
            "extension": [
                {
                    "url": "https://openimis.github.io/openimis_fhir_r4_ig/StructureDefinition/unit-price",
                    "valueMoney": {
                        "value": 400.0,
                        "currency": "$"
                    }
                },
                {
                    "url": "https://openimis.github.io/openimis_fhir_r4_ig/StructureDefinition/activity-definition-level",
                    "valueCodeableConcept": {
                        "coding": [
                            {
                                "system": "https://openimis.github.io/openimis_fhir_r4_ig/ValueSet/activity-definition-level",
                                "code": "S",
                                "display": "Simple Service"
                            }
                        ],
                        "text": "Simple Service"
                    }
                }
            ],
            "identifier": [
                {
                    "type": {
                        "coding": [
                            {
                                "system": "https://openimis.github.io/openimis_fhir_r4_ig/CodeSystem/openimis-identifiers",
                                "code": "UUID"
                            }
                        ]
                    },
                    "value": "AAAA29BA-3F4E-4E6F-B55C-23A488A10000"
                },
                {
                    "type": {
                        "coding": [
                            {
                                "system": "https://openimis.github.io/openimis_fhir_r4_ig/CodeSystem/openimis-identifiers",
                                "code": "Code"
                            }
                        ]
                    },
                    "value": "cServ"
                }
            ],
            "name": "cServ",
            "title": "General Consultation",
            "status": "active",
            "date": "2017-01-01T00:00:00",
            "useContext": [
                {
                    "code": {
                        "system": "http://terminology.hl7.org/CodeSystem/usage-context-type",
                        "code": "gender",
                        "display": "Gender"
                    },
                    "valueCodeableConcept": {
                        "coding": [
                            {
                                "system": "http://hl7.org/fhir/administrative-gender",
                                "code": "male",
                                "display": "Male"
                            },
                            {
                                "system": "http://hl7.org/fhir/administrative-gender",
                                "code": "female",
                                "display": "Female"
                            }
                        ],
                        "text": "Male or Female"
                    }
                },
                {
                    "code": {
                        "system": "http://terminology.hl7.org/CodeSystem/usage-context-type",
                        "code": "age",
                        "display": "Age Range"
                    },
                    "valueCodeableConcept": {
                        "coding": [
                            {
                                "system": "https://openimis.github.io/openimis_fhir_r4_ig/CodeSystem/usage-context-age-type",
                                "code": "adult",
                                "display": "Adult"
                            },
                            {
                                "system": "https://openimis.github.io/openimis_fhir_r4_ig/CodeSystem/usage-context-age-type",
                                "code": "child",
                                "display": "Child"
                            }
                        ],
                        "text": "Adult or Child"
                    }
                },
                {
                    "code": {
                        "system": "http://terminology.hl7.org/CodeSystem/usage-context-type",
                        "code": "venue",
                        "display": "Clinical Venue"
                    },
                    "valueCodeableConcept": {
                        "coding": [
                            {
                                "system": "http://terminology.hl7.org/2.1.0/CodeSystem-v3-ActCode.html",
                                "code": "AMB",
                                "display": "ambulatory"
                            }
                        ],
                        "text": "ambulatory"
                    }
                }
            ],
            "topic": [
                {
                    "coding": [
                        {
                            "system": "https://openimis.github.io/openimis_fhir_r4_ig/CodeSystem/activity-definition-service-type.html",
                            "code": "P",
                            "display": "Preventive"
                        }
                    ]
                }
            ],
            "timingTiming": {
                "repeat": {
                    "frequency": 1,
                    "period": 0.0,
                    "periodUnit": "d"
                }
            }
        }
    ]
}